sep=,
DeviceTag:,Shank
FirmwareVersion:,1.6.0
AppVersion:,2020.4.1
SyncStatus:,Un-synced
OutputRate:,60Hz
FilterProfile:,General
Measurement Mode:,Sensor fusion Mode - Orientation(Euler)
StartTime: ,2021-03-25_17:03:59_883 CDT
© Xsens Technologies B. V. 2005-2020

PacketCounter,SampleTimeFine,Euler_X,Euler_Y,Euler_Z
1,305442441,172.362854,-81.220139,-28.829361
2,305459108,168.108429,-80.635422,-24.832567
3,305475775,165.786484,-79.967010,-22.939264
4,305492442,165.871780,-79.447533,-23.388071
5,305509109,166.137268,-79.139961,-24.069674
6,305525776,164.879425,-78.779739,-23.610655
7,305542443,163.329117,-78.490593,-22.922184
8,305559110,162.273010,-78.365715,-22.613567
9,305575777,162.805099,-78.358673,-23.051531
10,305592444,163.441895,-78.371124,-23.681356
11,305609111,163.492035,-78.342102,-23.792273
12,305625778,163.032349,-78.292236,-23.595036
13,305642445,162.694351,-78.255882,-23.318375
14,305659112,163.138611,-78.263771,-23.288984
15,305675779,163.626785,-78.272491,-23.314875
16,305692446,163.801086,-78.253403,-23.164688
17,305709113,163.585861,-78.204956,-22.894688
18,305725780,163.437790,-78.152771,-22.671150
19,305742447,163.254120,-78.127350,-22.431683
20,305759114,163.013763,-78.091431,-22.192448
21,305775781,162.705109,-78.079155,-21.885715
22,305792448,162.285461,-78.100952,-21.509407
23,305809115,161.915039,-78.117744,-21.169359
24,305825782,161.414642,-78.156738,-20.755856
25,305842449,161.051025,-78.168869,-20.453407
26,305859116,160.974487,-78.149048,-20.255116
27,305875783,161.031021,-78.125565,-20.169678
28,305892450,161.059875,-78.078911,-20.091568
29,305909117,161.040955,-78.042351,-20.006014
30,305925784,161.051483,-78.010925,-19.935556
31,305942451,161.029037,-77.990616,-19.852587
32,305959118,161.099762,-77.949211,-19.787676
33,305975785,161.168533,-77.939713,-19.708784
34,305992452,161.222336,-77.924431,-19.664450
35,306009119,161.204453,-77.930618,-19.596783
36,306025786,161.210815,-77.946648,-19.600359
37,306042453,161.157333,-77.980705,-19.648941
38,306059120,161.036331,-78.022232,-19.684727
39,306075787,160.768936,-78.072960,-19.671904
40,306092454,160.615891,-78.128052,-19.639315
41,306109121,160.559006,-78.195839,-19.564877
42,306125788,160.602463,-78.229637,-19.558212
43,306142455,160.625244,-78.254120,-19.517477
44,306159122,160.656708,-78.247078,-19.505917
45,306175789,160.968475,-78.206139,-19.575993
46,306192456,161.325134,-78.165306,-19.684080
47,306209123,161.653687,-78.125626,-19.802717
48,306225790,161.714722,-78.074585,-19.928310
49,306242457,161.778900,-78.025841,-20.030228
50,306259124,161.899124,-78.030746,-20.159451
51,306275791,161.945862,-78.050873,-20.258284
52,306292458,161.815674,-78.065102,-20.319052
53,306309125,161.767090,-78.120300,-20.314198
54,306325792,161.747131,-78.153511,-20.337654
55,306342459,161.850098,-78.131836,-20.469839
56,306359126,162.015625,-78.071075,-20.683418
57,306375793,162.304337,-77.983551,-20.939947
58,306392460,162.503174,-77.899834,-21.199333
59,306409127,162.698898,-77.829819,-21.407005
60,306425794,162.622253,-77.881531,-21.270603
61,306442461,162.473694,-78.002815,-20.967453
62,306459128,162.354065,-78.224495,-20.523609
63,306475795,162.279877,-78.412590,-20.169413
64,306492462,162.226822,-78.563515,-19.843483
65,306509129,161.939285,-78.835495,-19.226871
66,306525796,161.679413,-79.033394,-18.658684
67,306542463,161.623764,-79.122391,-18.313776
68,306559130,161.681656,-79.160606,-17.904829
69,306575797,161.861038,-79.120132,-17.823215
70,306592464,161.884323,-79.063957,-17.645981
71,306609131,161.752258,-79.035690,-17.395554
72,306625798,161.743393,-78.990074,-17.117369
73,306642465,161.838882,-78.922981,-16.922422
74,306659132,162.057205,-78.813652,-16.800694
75,306675799,162.195389,-78.731644,-16.627033
76,306692466,162.116989,-78.707710,-16.246141
77,306709133,162.022720,-78.724976,-15.831497
78,306725800,161.915741,-78.785942,-15.360766
79,306742467,162.061447,-78.870293,-14.830231
80,306759134,162.227661,-78.936821,-14.361494
81,306775801,162.378555,-78.988403,-13.934990
82,306792468,162.483231,-79.031578,-13.582300
83,306809135,162.603317,-79.030678,-13.383272
84,306825802,162.815765,-79.012085,-13.329541
85,306842469,162.847824,-78.985794,-13.322005
86,306859136,162.775223,-78.969238,-13.300218
87,306875803,162.729355,-78.969330,-13.285670
88,306892470,162.924500,-78.969887,-13.362888
89,306909137,163.073654,-78.959641,-13.497460
90,306925804,163.228348,-78.959427,-13.613152
91,306942471,163.166504,-78.997475,-13.638373
92,306959138,163.221039,-79.020241,-13.676255
93,306975805,163.281219,-79.052872,-13.708668
94,306992472,163.326096,-79.099899,-13.710548
95,307009139,163.394241,-79.137390,-13.707043
96,307025806,163.525833,-79.183136,-13.737701
97,307042473,163.808975,-79.224762,-13.835811
98,307059140,164.023926,-79.270149,-13.921165
99,307075807,164.045166,-79.321411,-13.964618
100,307092474,164.076630,-79.351700,-14.027423
101,307109141,164.285797,-79.343513,-14.219512
102,307125808,164.790863,-79.275421,-14.591722
103,307142475,165.001770,-79.257195,-14.822100
104,307159142,164.833664,-79.289230,-14.875850
105,307175809,164.809875,-79.268433,-15.023355
106,307192476,164.994156,-79.211380,-15.313568
107,307209143,165.112976,-79.146965,-15.606615
108,307225810,165.200851,-79.034195,-15.917329
109,307242477,165.237930,-78.901924,-16.243116
110,307259144,165.069336,-78.814034,-16.392273
111,307275811,164.859940,-78.703842,-16.507887
112,307292478,164.723434,-78.564079,-16.641930
113,307309145,164.969086,-78.347862,-16.946308
114,307325812,165.250290,-78.042824,-17.444334
115,307342479,165.305725,-77.726120,-17.930832
116,307359146,164.838089,-77.403679,-18.163769
117,307375813,164.952972,-76.865555,-18.704634
118,307392480,166.451202,-75.867027,-20.043020
119,307409147,169.504364,-74.296577,-22.299404
120,307425814,172.894592,-72.564842,-24.804598
121,307442481,175.803467,-70.774605,-27.171774
122,307459148,178.071121,-68.452194,-29.116301
123,307475815,-179.806839,-66.070175,-30.354160
124,307492482,-178.122437,-65.240242,-31.372511
125,307509149,-176.810028,-64.613663,-32.556717
126,307525816,-175.377121,-63.720448,-33.843559
127,307542483,-174.097931,-63.997501,-35.079433
128,307559150,-173.586121,-64.939568,-35.848194
129,307575817,-175.105804,-66.035583,-35.879406
130,307592484,-177.165924,-67.771477,-35.086845
131,307609151,-179.673752,-69.800613,-33.402676
132,307625818,176.933868,-72.049339,-30.623880
133,307642485,172.584122,-74.452911,-26.314592
134,307659152,166.399872,-76.891220,-19.732523
135,307675819,157.102417,-79.260101,-9.561077
136,307692486,142.852402,-81.091217,5.517983
137,307709153,123.895042,-81.991539,25.016432
138,307725820,102.171677,-81.833023,46.890293
139,307742487,83.159386,-80.622231,65.514366
140,307759154,69.699585,-78.743561,78.575279
141,307775821,60.805138,-76.726425,87.325890
142,307792488,55.341183,-75.087875,92.402641
143,307809155,52.122269,-73.894051,95.183182
144,307825822,49.638874,-73.098328,96.896362
145,307842489,48.968475,-73.066360,97.196236
146,307859156,49.693695,-73.780945,96.276825
147,307875823,51.729473,-75.207802,94.147408
148,307892490,55.179955,-77.344574,90.411354
149,307909157,61.703129,-79.176727,84.040039
150,307925824,64.764572,-80.227325,80.426735
151,307942491,69.000076,-81.546181,75.776047
152,307959158,82.591133,-82.885727,63.018597
153,307975825,98.909470,-83.499649,47.252266
154,307992492,114.368263,-83.777641,32.340508
155,308009159,134.828583,-83.239227,11.397420
156,308025826,152.358994,-82.090660,-3.461936
157,308042493,159.675720,-81.690926,-9.559542
158,308059160,163.745850,-80.876396,-14.797776
159,308075827,167.197510,-79.821907,-19.016060
160,308092494,168.384613,-79.285133,-21.619577
161,308109161,171.047638,-78.483475,-24.339014
162,308125828,174.738510,-77.768745,-26.813915
163,308142495,176.740585,-77.207489,-28.850695
164,308159162,177.960663,-76.589005,-30.631292
165,308175829,178.269577,-76.323547,-31.709789
166,308192496,177.859665,-76.162781,-32.534267
167,308209163,177.977982,-75.891632,-33.197445
168,308225830,177.832077,-75.901962,-33.775032
169,308242497,178.108459,-75.871948,-34.416275
170,308259164,178.684128,-75.556564,-35.208065
171,308275831,179.300385,-75.345337,-35.885059
172,308292498,-179.970657,-75.021690,-36.577026
173,308309165,-179.133392,-74.628448,-37.315464
174,308325832,-178.368530,-74.140991,-38.069828
175,308342499,-177.285019,-73.545425,-38.910549
176,308359166,-176.187286,-72.979416,-39.803806
177,308375833,-175.452072,-72.280823,-40.617199
178,308392500,-175.095245,-71.488304,-41.313854
179,308409167,-174.657379,-70.623596,-42.088413
180,308425834,-174.048904,-69.605171,-42.880192
181,308442501,-172.894196,-68.394897,-43.454613
182,308459168,-171.871811,-66.924294,-43.947426
183,308475835,-170.891953,-65.094826,-44.307747
184,308492502,-170.245712,-62.986542,-44.594650
185,308509169,-170.083603,-60.682884,-44.854767
186,308525836,-170.124435,-58.105152,-44.971905
187,308542503,-170.408310,-55.282627,-45.000977
188,308559170,-170.709259,-52.030994,-45.178894
189,308575837,-171.556335,-48.599213,-45.623726
190,308592504,-172.727386,-45.143475,-46.208118
191,308609171,-174.012436,-41.485825,-47.002228
192,308625838,-173.983932,-37.079151,-47.909016
193,308642505,-173.129196,-34.107502,-48.950718
194,308659172,-172.533966,-32.718620,-49.827366
195,308675839,-172.809677,-31.021856,-50.738148
196,308692506,-173.794662,-29.311707,-51.555061
197,308709173,-173.874680,-30.131895,-52.321274
198,308725840,-175.602188,-30.727512,-52.918259
199,308742507,-176.822693,-31.920624,-53.488590
200,308759174,-176.368225,-34.167416,-53.973774
201,308775841,-175.096924,-37.114464,-54.178761
202,308792508,-174.496216,-40.524700,-54.184792
203,308809175,-174.251846,-44.493126,-54.006245
204,308825842,-174.472916,-49.096966,-53.554279
205,308842509,-176.023529,-53.977074,-52.691257
206,308859176,-177.809525,-59.464481,-51.285728
207,308875843,-179.488663,-65.571869,-48.952023
208,308892510,177.116241,-71.521019,-45.014111
209,308909177,169.834457,-77.482094,-36.994999
210,308925844,145.673676,-83.328972,-11.598123
211,308942511,73.474800,-84.014442,61.833656
212,308959178,43.004868,-78.365570,92.522362
213,308975845,36.061584,-72.653786,100.691177
214,308992512,33.051201,-68.046951,104.377792
215,309009179,31.429993,-65.498680,106.373474
216,309025846,30.062109,-64.397247,107.937408
217,309042513,31.793152,-65.824249,107.092163
218,309059180,36.113892,-68.846817,104.690216
219,309075847,40.740646,-72.801605,100.970627
220,309092514,39.884460,-73.060509,102.293777
221,309109181,34.900806,-72.659637,105.895157
222,309125848,46.313774,-76.352516,98.696846
223,309142515,64.399475,-80.044899,83.272011
224,309159182,64.574821,-81.842628,78.363884
225,309175849,74.398781,-83.458450,67.507286
226,309192516,112.380234,-84.279297,33.436096
227,309209183,126.214600,-84.308563,18.590097
228,309225850,130.626053,-84.479195,11.695927
229,309242517,147.498428,-83.381653,-2.655219
230,309259184,154.807816,-82.786018,-8.632576
231,309275851,155.807816,-82.506798,-12.699740
232,309292518,161.350525,-81.446388,-18.685055
233,309309185,165.148758,-80.755913,-22.546879
234,309325852,165.129440,-81.032043,-23.785791
235,309342519,166.032837,-80.825966,-25.089512
236,309359186,166.518906,-80.268272,-26.803696
237,309375853,165.859344,-80.165489,-27.857164
238,309392520,167.906754,-79.406082,-30.146458
239,309409187,170.358658,-78.863960,-32.131546
240,309425854,172.231644,-78.382072,-33.646938
241,309442521,174.401733,-77.685127,-34.920036
242,309459188,175.411469,-77.043205,-36.033642
243,309475855,176.579117,-76.282677,-37.044506
244,309492522,178.680557,-75.256012,-38.199581
245,309509189,-179.666275,-74.227119,-39.352158
246,309525856,-178.614517,-73.142754,-40.511692
247,309542523,-177.739853,-71.750969,-41.617737
248,309559190,-177.013123,-70.165070,-42.543907
249,309575857,-176.111389,-68.318443,-43.327263
250,309592524,-174.970749,-66.188194,-43.915615
251,309609191,-173.947266,-63.802246,-44.360455
252,309625858,-173.074829,-61.015530,-44.689880
253,309642525,-172.995300,-58.027649,-44.977997
254,309659192,-173.371124,-54.703724,-45.024090
255,309675859,-173.889282,-50.991192,-45.197670
256,309692526,-175.577713,-47.425377,-45.874313
257,309709193,-176.889008,-43.545147,-46.714729
258,309725860,-176.986252,-38.188805,-47.669941
259,309742527,-175.848526,-34.623547,-48.601070
260,309759194,-175.336273,-34.252628,-49.202175
261,309775861,-175.123810,-32.688496,-49.871422
262,309792528,-176.302628,-30.543671,-50.493778
263,309809195,-176.333405,-31.172789,-50.846813
264,309825862,-176.399124,-32.499748,-51.136406
265,309842529,-178.259689,-33.829174,-51.335629
266,309859196,-178.977676,-36.130573,-51.497967
267,309875863,-178.027145,-39.273052,-51.474831
268,309892530,-177.006821,-43.119690,-51.185722
269,309909197,-176.449722,-47.167557,-50.639874
270,309925864,-176.164536,-51.741425,-49.660248
271,309942531,-177.042984,-56.836926,-48.053143
272,309959198,-178.716278,-62.234596,-45.692116
273,309975865,178.757645,-68.020432,-41.877014
274,309992532,173.241577,-74.069786,-34.726280
275,310009199,158.613266,-79.812363,-18.669155
276,310025866,116.879211,-83.393547,24.371920
277,310042533,65.850746,-80.754417,76.904991
278,310059200,47.151814,-74.713531,96.725395
279,310075867,39.191368,-68.873116,105.075676
280,310092534,34.072281,-64.936531,109.129555
281,310109201,30.250004,-62.159092,111.963593
282,310125868,28.081957,-60.933708,113.287491
283,310142535,30.364361,-62.253269,112.677948
284,310159202,33.101013,-64.713608,111.535149
285,310175869,37.684151,-68.326370,109.121765
286,310192536,42.547092,-70.201569,107.303711
287,310209203,39.818249,-70.294678,110.051346
288,310225870,43.634827,-72.830688,107.763741
289,310242537,56.793346,-76.718155,97.797096
290,310259204,53.821529,-78.518166,96.779274
291,310275871,52.954391,-80.506554,93.089951
292,310292538,77.558319,-83.080124,71.465149
293,310309205,88.897408,-84.078880,62.461117
294,310325872,91.702568,-84.812576,57.517746
295,310342539,120.002357,-84.782257,30.763081
296,310359206,132.858185,-84.562386,18.624563
297,310375873,134.647552,-84.713501,13.869748
298,310392540,147.525909,-83.932335,1.210016
299,310409207,156.638367,-83.216125,-7.460872
300,310425874,160.315323,-83.075134,-12.399402
301,310442541,165.853912,-82.433487,-17.803263
302,310459208,167.917145,-81.792885,-21.083866
303,310475875,167.594635,-81.556244,-22.643639
304,310492542,169.442230,-80.746620,-25.306644
305,310509209,172.073090,-79.977974,-27.883839
306,310525876,174.678986,-79.189018,-30.096291
307,310542543,176.665848,-78.317413,-31.894569
308,310559210,177.587280,-77.621429,-33.162361
309,310575877,178.164902,-76.862640,-34.232716
310,310592544,178.829468,-76.059906,-35.230331
311,310609211,179.973145,-75.119476,-36.272804
312,310625878,-179.224869,-74.115150,-37.215687
313,310642545,-178.966965,-72.936440,-38.065800
314,310659212,-178.436829,-71.544067,-38.883965
315,310675879,-177.430756,-69.886360,-39.627914
316,310692546,-176.059402,-67.896530,-40.149162
317,310709213,-174.597183,-65.548904,-40.609627
318,310725880,-173.613342,-62.987411,-41.032139
319,310742547,-173.909088,-60.433178,-41.208767
320,310759214,-174.444839,-57.620625,-41.030613
321,310775881,-174.785385,-54.292171,-41.010517
322,310792548,-175.446426,-50.765614,-41.208797
323,310809215,-176.291595,-47.257542,-41.558941
324,310825882,-177.136780,-43.332130,-42.318268
325,310842549,-176.969177,-38.614811,-43.135567
326,310859216,-176.849548,-35.505165,-43.918793
327,310875883,-177.322144,-35.321087,-44.442547
328,310892550,-177.561996,-34.323868,-45.115902
329,310909217,-178.620712,-32.469757,-46.029793
330,310925884,-176.860062,-32.756290,-46.374081
331,310942551,-177.096664,-34.872620,-46.722282
332,310959218,179.856750,-35.887276,-46.981750
333,310975885,179.163971,-37.803520,-47.263542
334,310992552,179.687317,-41.330200,-47.384098
335,311009219,-179.419510,-45.206535,-47.327137
336,311025886,-178.717987,-48.633801,-47.026634
337,311042553,-178.077896,-53.226810,-46.281212
338,311059220,-178.614685,-58.132641,-45.041901
339,311075887,179.590073,-63.082783,-43.011169
340,311092554,176.736847,-69.005180,-39.313786
341,311109221,171.496811,-75.099190,-32.140366
342,311125888,157.125488,-80.750084,-15.346223
343,311142555,111.120422,-84.006714,32.235947
344,311159222,62.599354,-80.892891,81.980873
345,311175889,45.781391,-74.777664,100.615913
346,311192556,38.399452,-69.161880,108.407692
347,311209223,33.966190,-65.914665,111.764458
348,311225890,26.630907,-62.481567,115.984291
349,311242557,24.566620,-61.997253,116.362740
350,311259224,25.663515,-63.039135,116.013809
351,311275891,27.103186,-65.156303,115.742416
352,311292558,31.009274,-68.688911,114.251701
353,311309225,38.393940,-70.864937,111.969009
354,311325892,39.352219,-71.248917,113.694710
355,311342559,46.458080,-74.492874,109.660370
356,311359226,60.353115,-78.206680,98.046722
357,311375893,57.816227,-79.863411,96.374123
358,311392560,52.619099,-81.272514,95.656242
359,311409227,70.822594,-83.874588,75.827591
360,311425894,101.572563,-84.948868,49.638992
361,311442561,111.456558,-85.363251,40.752239
362,311459228,131.575851,-84.961098,19.643023
363,311475895,147.708206,-83.948875,3.375776
364,311492562,150.552017,-83.787384,-1.240321
365,311509229,155.436661,-83.131134,-7.398343
366,311525896,161.788925,-82.236717,-13.428767
367,311542563,164.239105,-81.919182,-16.776150
368,311559230,166.500656,-81.173660,-19.510939
369,311575897,167.310562,-80.553520,-21.224150
370,311592564,167.365646,-80.146141,-22.696087
371,311609231,169.185379,-79.434059,-24.410564
372,311625898,170.745651,-78.749176,-25.801130
373,311642565,172.399002,-78.160522,-27.022429
374,311659232,174.106140,-77.479813,-28.112701
375,311675899,175.294434,-76.857941,-28.993797
376,311692566,176.359039,-76.244392,-29.868093
377,311709233,177.516449,-75.504410,-30.764044
378,311725900,178.780640,-74.605667,-31.812796
379,311742567,-179.631302,-73.528641,-32.921516
380,311759234,-178.214233,-72.283730,-34.045250
381,311775901,-177.339157,-70.983612,-35.171272
382,311792568,-176.706223,-69.547791,-36.139957
383,311809235,-176.428238,-68.008232,-36.882755
384,311825902,-176.022873,-66.292145,-37.365036
385,311842569,-174.851212,-64.089622,-37.798439
386,311859236,-173.557602,-61.557190,-38.235477
387,311875903,-172.974243,-58.767242,-38.660748
388,311892570,-173.286591,-55.852596,-38.947330
389,311909237,-173.119476,-52.157879,-39.062016
390,311925904,-174.516983,-48.610218,-39.424019
391,311942571,-177.086700,-45.295471,-39.767166
392,311959238,-178.668961,-41.284504,-40.124561
393,311975905,-179.898712,-36.631165,-40.715164
394,311992572,-179.399384,-33.122505,-41.308350
395,312009239,-178.411407,-32.178532,-41.570660
396,312025906,-178.109161,-31.052401,-41.975674
397,312042573,-179.819153,-29.457644,-42.344818
398,312059240,-178.957153,-29.200739,-42.290592
399,312075907,-178.064865,-30.022463,-42.021156
400,312092574,178.581070,-31.193949,-41.457901
401,312109241,177.131363,-33.215034,-40.680267
402,312125908,177.713791,-35.496117,-39.627575
403,312142575,178.007828,-38.598610,-38.103107
404,312159242,178.729385,-42.294849,-36.092861
405,312175909,179.846069,-46.132103,-33.563641
406,312192576,178.591614,-49.904442,-30.372738
407,312209243,175.488998,-54.443047,-25.925009
408,312225910,172.236603,-59.305359,-19.834709
409,312242577,167.124619,-63.719124,-11.631204
410,312259244,159.527435,-67.227501,-0.831877
411,312275911,150.711472,-69.680809,13.118606
412,312292578,142.393921,-70.596329,29.545219
413,312309245,133.837677,-70.274933,46.836807
414,312325912,125.426491,-68.910637,62.630676
415,312342579,121.306290,-66.494247,73.762711
416,312359246,119.925171,-63.900341,82.060341
417,312375913,118.391464,-61.727215,90.036362
418,312392580,118.710136,-59.813625,96.401543
419,312409247,120.884445,-58.131138,100.945442
420,312425914,123.432175,-56.933701,104.808281
421,312442581,126.213425,-56.168499,108.047150
422,312459248,129.505280,-55.654175,110.534744
423,312475915,134.648026,-55.220009,111.910690
424,312492582,138.606613,-54.678078,111.874863
425,312509249,142.047882,-54.052490,110.619705
426,312525916,143.438812,-54.531078,109.029251
427,312542583,144.362366,-56.575489,108.186447
428,312559250,147.373474,-58.337082,106.751823
429,312575917,145.823318,-59.497684,105.294350
430,312592584,138.835342,-61.490158,105.137062
431,312609251,136.201050,-62.902313,105.333183
432,312625918,142.606689,-63.945248,105.046181
433,312642585,145.315125,-65.554466,106.009277
434,312659252,148.493546,-66.167625,105.088295
435,312675919,148.097275,-67.292740,105.646896
436,312692586,145.977615,-68.539597,106.415169
437,312709253,147.776978,-68.850113,105.754272
438,312725920,152.048843,-69.288773,105.847313
439,312742587,153.582260,-69.870155,106.398972
440,312759254,155.058853,-70.102722,106.447128
441,312775921,154.704636,-70.773186,107.296143
442,312792588,154.367599,-71.461502,108.158051
443,312809255,155.808197,-71.800690,108.200768
444,312825922,157.490967,-72.031807,108.076424
445,312842589,158.505127,-72.348434,108.118858
446,312859256,158.914551,-72.691284,108.460571
447,312875923,159.339020,-72.936462,108.527443
448,312892590,160.075851,-73.112244,108.610893
449,312909257,159.445129,-73.377884,109.267769
450,312925924,159.119797,-73.585274,109.689613
451,312942591,160.957916,-73.643532,109.899918
452,312959258,162.657623,-73.853844,110.505554
453,312975925,162.232712,-73.816795,111.129898
454,312992592,161.817215,-73.906761,111.906746
455,313009259,161.542542,-74.009521,112.667450
456,313025926,161.649857,-73.971619,113.263016
457,313042593,161.834183,-73.790634,113.676346
458,313059260,161.640854,-73.560844,114.126968
459,313075927,161.357422,-73.416924,114.727043
460,313092594,161.133453,-73.559006,115.756096
461,313109261,161.108154,-73.787971,116.982468
462,313125928,160.822647,-73.841408,118.060547
463,313142595,160.699600,-73.588379,118.619949
464,313159262,161.034073,-73.159737,118.807617
465,313175929,161.644577,-72.617592,118.770393
466,313192596,161.835083,-72.106209,118.893951
467,313209263,161.807266,-71.614128,119.265640
468,313225930,161.557327,-71.315506,120.286903
469,313242597,161.169540,-71.525604,122.418495
470,313259264,161.289658,-72.037949,125.144897
471,313275931,164.030731,-72.193321,127.248337
472,313292598,168.788986,-72.381378,129.545898
473,313309265,173.474838,-72.884239,132.187775
474,313325932,177.813004,-73.201401,134.391708
475,313342599,-179.347717,-73.662338,136.376556
476,313359266,-177.550278,-74.303947,138.947968
477,313375933,-177.647537,-74.878273,142.530014
478,313392600,178.969147,-76.229332,147.432358
479,313409267,173.948776,-77.509773,153.585587
480,313425934,166.914383,-78.932564,161.109909
481,313442601,157.893570,-80.437988,170.271255
482,313459268,147.768265,-81.708977,-179.091995
483,313475935,136.482910,-82.634010,-167.020142
484,313492602,122.874695,-83.178467,-152.647171
485,313509269,107.000893,-83.223061,-136.215607
486,313525936,92.389816,-82.677101,-121.081863
487,313542603,80.194939,-81.725525,-108.705681
488,313559270,71.353416,-80.568954,-99.754623
489,313575937,65.744591,-79.425079,-93.846634
490,313592604,61.948029,-78.396751,-89.706009
491,313609271,59.126457,-77.474937,-86.709908
492,313625938,57.206665,-76.698830,-84.711227
493,313642605,55.992039,-76.147781,-83.558907
494,313659272,55.399853,-75.868813,-83.087990
495,313675939,55.880543,-75.916779,-83.416252
496,313692606,57.507523,-76.296982,-84.588280
497,313709273,60.281864,-77.030701,-86.602051
498,313725940,62.945663,-78.260567,-89.205521
499,313742607,70.093155,-79.615677,-95.289543
500,313759274,75.250214,-80.452972,-99.842842
501,313775941,79.658241,-81.378555,-104.521599
502,313792608,90.710709,-82.351967,-115.141716
503,313809275,102.950073,-82.930176,-127.118172
504,313825942,115.207436,-83.113907,-139.308868
505,313842609,130.833725,-82.861832,-154.562134
506,313859276,145.710983,-82.203766,-168.922272
507,313875943,157.017014,-81.457352,-178.484695
508,313892610,164.057724,-80.785072,175.005554
509,313909277,168.066391,-79.755295,169.668533
510,313925944,170.513321,-79.020096,166.115311
511,313942611,172.245850,-78.207596,162.933029
512,313959278,174.766418,-77.339828,160.145233
513,313975945,177.149719,-76.759537,157.747604
514,313992612,179.297943,-75.994965,155.662094
515,314009279,-178.920639,-75.335907,154.080460
516,314025946,-177.776245,-74.941017,152.754425
517,314042613,-177.107025,-74.518448,151.690628
518,314059280,-176.904678,-74.089394,150.825714
519,314075947,-176.813553,-73.800766,150.138550
520,314092614,-176.293716,-73.335518,149.437622
521,314109281,-175.472015,-72.928886,148.831680
522,314125948,-175.083237,-72.621567,148.260925
523,314142615,-174.665421,-72.145653,147.690948
524,314159282,-174.094360,-71.512177,147.059814
525,314175949,-173.454849,-70.819504,146.475983
526,314192616,-172.952255,-70.045135,145.923981
527,314209283,-172.483643,-69.266525,145.348709
528,314225950,-172.016647,-68.456306,144.724838
529,314242617,-171.679794,-67.656654,144.067810
530,314259284,-171.483994,-66.724274,143.409286
531,314275951,-171.246857,-65.580605,142.850006
532,314292618,-171.092590,-64.322899,142.450150
533,314309285,-170.660828,-62.791058,142.224335
534,314325952,-170.169769,-61.061127,142.056168
535,314342619,-169.873260,-59.037418,141.976624
536,314359286,-170.221252,-56.945953,141.926590
537,314375953,-170.907623,-54.589191,141.993179
538,314392620,-171.557770,-51.806007,142.183075
539,314409287,-172.402740,-48.596836,142.206436
540,314425954,-173.680054,-45.323730,142.031342
541,314442621,-175.172668,-42.075714,141.562454
542,314459288,-176.203323,-38.265366,140.881104
543,314475955,-176.430359,-33.966396,139.989243
544,314492622,-176.398499,-31.305216,139.056122
545,314509289,-176.787979,-30.746069,138.323807
546,314525956,-177.154160,-29.030344,137.559906
547,314542623,-177.536499,-27.067261,136.780594
548,314559290,-176.590561,-27.790091,136.186188
549,314575957,-176.596451,-29.208771,135.504150
550,314592624,-178.385025,-29.780165,134.833084
551,314609291,-178.541931,-32.087719,134.294861
552,314625958,-178.012894,-35.276665,133.905457
553,314642625,-177.690506,-38.448517,133.623001
554,314659292,-177.190964,-42.172306,133.477448
555,314675959,-177.219101,-46.546299,133.577103
556,314692626,-178.345764,-50.970020,133.973480
557,314709293,-179.989288,-56.227642,134.963867
558,314725960,178.226929,-61.870300,136.819107
559,314742627,175.951843,-67.732796,140.076508
560,314759294,170.942978,-73.719536,146.463409
561,314775961,158.239807,-79.523552,161.261703
562,314792628,119.348923,-83.493111,-157.249222
563,314809295,64.929474,-81.105080,-100.711151
564,314825962,46.287769,-75.726555,-81.541908
565,314842629,41.571232,-71.544556,-75.020348
566,314859296,37.420757,-68.800781,-70.821945
567,314875963,30.510098,-66.719398,-67.003197
568,314892630,32.530254,-67.460190,-67.677818
569,314909297,33.881168,-69.252998,-68.626816
570,314925964,37.374584,-71.998474,-70.601685
571,314942631,43.802620,-74.611115,-74.114868
572,314959298,47.863434,-75.923958,-75.625641
573,314975965,47.838665,-77.136108,-75.115891
574,314992632,65.249893,-80.200806,-88.864563
575,315009299,82.964203,-82.360931,-106.859825
576,315025966,90.425873,-83.744141,-120.047012
577,315042633,119.788490,-84.028740,-148.244614
578,315059300,147.492157,-82.822334,-171.867676
579,315075967,147.867645,-83.618561,-174.770721
580,315092634,156.042404,-82.579079,175.329880
581,315109301,165.890793,-80.997131,167.803879
582,315125968,167.990250,-81.061653,165.675964
583,315142635,169.278748,-80.808281,163.002426
584,315159302,173.447571,-79.699570,159.187805
585,315175969,176.514786,-79.327980,156.392319
586,315192636,179.243439,-79.219551,154.069885
587,315209303,-178.883026,-78.707626,152.190765
588,315225970,-178.565872,-78.417282,150.781464
589,315242637,-178.200317,-78.091980,149.624878
590,315259304,-176.715179,-77.535233,148.317154
591,315275971,-175.126205,-77.036453,147.151169
592,315292638,-174.027634,-76.449883,146.138947
593,315309305,-173.144226,-75.757133,145.257309
594,315325972,-172.207657,-74.909187,144.455246
595,315342639,-171.261902,-73.955627,143.648544
596,315359306,-170.415314,-72.876648,142.893433
597,315375973,-169.676361,-71.697411,142.099945
598,315392640,-169.589645,-70.487625,141.210922
599,315409307,-169.847412,-69.107719,140.481110
600,315425974,-169.975876,-67.604134,139.961472
601,315442641,-169.378632,-65.752525,139.599228
602,315459308,-168.617401,-63.680237,139.335983
603,315475975,-168.158600,-61.460228,139.163818
604,315492642,-168.222702,-59.118698,139.093582
605,315509309,-168.669373,-56.624374,139.077591
606,315525976,-169.315384,-54.006943,139.186340
607,315542643,-169.903259,-51.076954,139.330338
608,315559310,-171.259781,-47.977310,139.214478
609,315575977,-172.642578,-44.727818,138.913757
610,315592644,-173.522949,-41.222454,138.338562
611,315609311,-173.853226,-36.922211,137.523865
612,315625978,-173.736252,-33.417652,136.476700
613,315642645,-173.606476,-32.011505,135.497406
614,315659312,-173.446930,-30.460407,134.498230
615,315675979,-174.479706,-28.171776,133.373734
616,315692646,-174.906525,-28.163490,132.419952
617,315709313,-175.384811,-29.185898,131.588654
618,315725980,-177.260040,-29.968559,130.849472
619,315742647,-178.087189,-31.920132,130.108688
620,315759314,-176.849442,-34.474880,129.499603
621,315775981,-175.571594,-37.438404,129.104202
622,315792648,-174.944458,-41.232513,128.949310
623,315809315,-174.640930,-45.467068,129.109192
624,315825982,-175.545181,-49.997494,129.631577
625,315842649,-176.888596,-55.024124,130.567154
626,315859316,-177.956039,-60.644104,132.133636
627,315875983,179.796204,-66.412224,134.831268
628,315892650,174.975098,-72.351822,139.921600
629,315909317,164.895554,-78.214661,151.105972
630,315925984,133.152115,-83.293755,-175.424744
631,315942651,71.866035,-82.569534,-112.779060
632,315959318,49.566250,-77.825310,-88.873352
633,315975985,41.945107,-73.285980,-79.418198
634,315992652,38.218822,-70.489227,-75.031746
635,316009319,33.431602,-68.495247,-71.304352
636,316025986,34.400982,-68.990959,-71.673660
637,316042653,37.035389,-70.677940,-73.145050
638,316059320,41.558796,-73.656296,-76.221107
639,316075987,49.531342,-76.165062,-80.848907
640,316092654,51.739738,-77.201912,-81.773148
641,316109321,50.665775,-78.368584,-81.484108
642,316125988,68.912819,-81.288437,-97.245056
643,316142655,91.455757,-83.184967,-120.061234
644,316159322,102.338608,-84.162193,-136.308701
645,316175989,128.096542,-84.027031,-161.974060
646,316192656,147.346817,-83.277397,-177.498825
647,316209323,152.350632,-83.003815,176.362335
648,316225990,159.131454,-81.854591,168.305161
649,316242657,166.684570,-80.579758,162.648468
650,316259324,168.938004,-80.131271,159.918991
651,316275991,171.367355,-79.153473,156.797424
652,316292658,173.869370,-78.275986,154.025269
653,316309325,175.761978,-78.149147,152.117340
654,316325992,177.577011,-77.670166,150.557175
655,316342659,177.526459,-77.081062,149.417145
656,316359326,176.932800,-76.975983,148.603729
657,316375993,177.793915,-76.437309,147.558807
658,316392660,179.866852,-75.721321,146.306305
659,316409327,-178.622620,-75.199158,145.270920
660,316425994,-177.397003,-74.533745,144.477036
661,316442661,-176.847443,-73.848244,143.854065
662,316459328,-176.323364,-73.140327,143.327805
663,316475995,-175.748840,-72.384941,142.882248
664,316492662,-174.740982,-71.469849,142.315018
665,316509329,-173.994644,-70.399269,141.664871
666,316525996,-173.582626,-69.156265,141.075394
667,316542663,-173.342239,-67.750587,140.550903
668,316559330,-173.004150,-66.143677,140.106918
669,316575997,-172.440674,-64.291740,139.773560
670,316592664,-171.926559,-62.177250,139.562393
671,316609331,-171.699097,-59.819275,139.411499
672,316625998,-171.916580,-57.244785,139.330795
673,316642665,-172.095551,-54.320255,139.329391
674,316659332,-172.714172,-51.259991,139.392792
675,316675999,-174.412277,-48.182087,139.256561
676,316692666,-176.202835,-45.008995,138.941574
677,316709333,-177.138489,-41.343853,138.373856
678,316726000,-177.020874,-36.752678,137.667953
679,316742667,-176.379929,-33.471310,136.869705
680,316759334,-176.518005,-32.810287,136.250168
681,316776001,-176.691681,-31.487524,135.536606
682,316792668,-177.872818,-29.106943,134.687897
683,316809335,-177.722427,-29.068739,134.287491
684,316826002,-177.068008,-30.468193,133.881302
685,316842669,-178.306534,-31.179062,133.474869
686,316859336,-178.568634,-33.096073,133.059784
687,316876003,-177.099182,-35.861801,132.728729
688,316892670,-175.933548,-39.200153,132.621399
689,316909337,-175.971680,-42.767788,132.695312
690,316926004,-175.969345,-46.794128,132.984406
691,316942671,-175.785004,-51.446991,133.659180
692,316959338,-176.292389,-56.416309,134.737183
693,316976005,-177.395432,-61.678623,136.539047
694,316992672,-178.982468,-67.306572,139.539459
695,317009339,176.465073,-73.145325,145.019043
696,317026006,165.125458,-78.645218,156.539307
697,317042673,136.997131,-82.955498,-174.309219
698,317059340,88.009087,-83.075928,-122.351021
699,317076007,58.959343,-79.064171,-89.853935
700,317092674,47.484009,-74.852058,-77.589088
701,317109341,39.841778,-71.597229,-71.279373
702,317126008,30.041014,-68.435242,-65.815102
703,317142675,25.868292,-67.219276,-64.400253
704,317159342,25.881201,-67.501297,-64.213066
705,317176009,27.193115,-68.644737,-63.912411
706,317192676,32.055984,-71.645317,-65.311523
707,317209343,46.630650,-74.760475,-72.201279
708,317226010,48.872337,-76.204185,-73.064499
709,317242677,48.929886,-77.980331,-73.558678
710,317259344,71.118187,-81.835815,-93.814529
711,317276011,77.121849,-83.564835,-103.506454
712,317292678,77.549576,-84.706093,-110.821648
713,317309345,106.040642,-85.548248,-136.148300
714,317326012,130.613937,-85.532661,-156.024551
715,317342679,145.245972,-84.894585,-172.575333
716,317359346,155.961594,-84.221725,176.884964
717,317376013,163.709061,-83.643135,169.665634
718,317392680,167.811020,-82.820724,163.661453
719,317409347,172.830811,-81.882072,159.113937
720,317426014,177.507233,-81.265274,155.743652
721,317442681,-179.266113,-80.386833,152.598892
722,317459348,-177.903992,-79.681915,150.644516
723,317476015,-178.121216,-79.301216,149.210587
724,317492682,-177.344955,-78.846222,147.816422
725,317509349,-176.014435,-78.201866,146.701889
726,317526016,-174.909851,-77.608109,145.714676
727,317542683,-173.684479,-76.921806,144.893738
728,317559350,-172.820633,-76.230194,144.200882
729,317576017,-172.330460,-75.591179,143.624161
730,317592684,-171.772156,-74.794548,143.101456
731,317609351,-171.075684,-73.956268,142.529404
732,317626018,-170.413086,-72.915764,141.993958
733,317642685,-169.701233,-71.703720,141.388580
734,317659352,-169.099228,-70.306053,140.744904
735,317676019,-168.864441,-68.899231,140.203003
736,317692686,-168.790970,-67.333031,139.843201
737,317709353,-168.783554,-65.684868,139.594269
738,317726020,-168.676453,-63.790756,139.561096
739,317742687,-168.176041,-61.461765,139.663925
740,317759354,-168.178421,-59.002773,139.656708
741,317776021,-168.509445,-56.210434,139.818741
742,317792688,-168.908585,-53.008110,140.138641
743,317809355,-170.200897,-49.620834,140.178726
744,317826022,-172.176208,-46.289635,140.007767
745,317842689,-173.701828,-42.612335,139.696411
746,317859356,-173.934799,-38.428856,139.111420
747,317876023,-173.962723,-34.785820,138.302734
748,317892690,-174.471878,-33.261620,137.445618
749,317909357,-174.274780,-32.686115,136.541122
750,317926024,-176.446075,-31.387995,135.303604
751,317942691,-178.517700,-30.444786,134.109787
752,317959358,-176.712158,-31.118298,133.146469
753,317976025,-178.260834,-32.385540,132.393280
754,317992692,178.696884,-33.880997,131.615494
755,318009359,179.063049,-36.310089,130.815140
756,318026026,-178.829758,-39.322285,130.167419
757,318042693,-177.505371,-42.374817,129.704712
758,318059360,-176.992096,-46.320026,129.622650
759,318076027,-177.152283,-50.788616,129.948715
760,318092694,-179.020737,-55.388687,130.645233
761,318109361,179.086273,-60.923866,132.138992
762,318126028,177.853470,-66.847954,134.933990
763,318142695,174.937286,-72.821442,140.294479
764,318159362,164.982529,-78.775230,152.824677
765,318176029,130.146011,-83.287735,-170.208755
766,318192696,71.142860,-81.504257,-110.255180
767,318209363,48.631115,-75.732224,-86.619644
768,318226030,41.928413,-71.445198,-79.333374
769,318242697,37.394459,-68.836472,-75.270294
770,318259364,30.295851,-66.395447,-71.707558
771,318276031,31.575743,-66.885765,-72.585190
772,318292698,31.650620,-68.251762,-73.265083
773,318309365,34.249210,-70.696754,-74.986115
774,318326032,42.040348,-73.706314,-79.400642
775,318342699,42.865253,-74.388496,-79.344086
776,318359366,35.611912,-74.412521,-74.801117
777,318376033,43.155155,-77.686531,-80.272789
778,318392700,63.922451,-81.358238,-96.361633
779,318409367,60.244858,-82.479942,-96.242592
780,318426034,49.115532,-83.535950,-93.792160
781,318442701,75.112206,-85.604485,-119.939598
782,318459368,104.595070,-85.956642,-144.012939
783,318476035,88.501076,-86.389030,-127.011642
784,318492702,122.863907,-86.279900,-160.225266
785,318509369,140.750824,-85.768906,-177.124634
786,318526036,142.388321,-85.909401,178.398300
787,318542703,149.552948,-85.564209,170.151108
788,318559370,156.403503,-85.075905,162.957489
789,318576037,159.736298,-85.054779,159.283508
790,318592704,165.939682,-84.454514,153.603424
791,318609371,169.782288,-83.987839,149.789398
792,318626038,172.157745,-83.589813,146.795746
793,318642705,174.506866,-83.088486,143.921860
794,318659372,176.649094,-82.486763,141.519547
795,318676039,178.594406,-81.837883,139.338196
796,318692706,-179.745270,-81.082893,137.529175
797,318709373,-178.946487,-80.350967,136.369110
798,318726040,-178.318314,-79.556671,135.508743
799,318742707,-177.463150,-78.651375,134.710114
800,318759374,-176.233643,-77.621605,133.935684
801,318776041,-175.047043,-76.547951,133.355255
802,318792708,-174.281937,-75.627701,132.860382
803,318809375,-173.653748,-74.674080,132.291641
804,318826042,-173.022324,-73.673195,131.725876
805,318842709,-172.768127,-72.859009,131.149292
806,318859376,-172.612885,-72.053818,130.644714
807,318876043,-172.618988,-71.217377,130.145889
808,318892710,-172.465012,-70.219193,129.764603
809,318909377,-172.141602,-69.086296,129.517349
810,318926044,-171.981659,-67.915268,129.358200
811,318942711,-171.440628,-66.438278,129.182541
812,318959378,-170.906494,-64.850227,128.965775
813,318976045,-170.794556,-63.140453,128.814377
814,318992712,-170.646606,-61.162952,128.676834
815,319009379,-170.330780,-59.210411,128.439407
816,319026046,-170.707275,-57.208523,128.183640
817,319042713,-171.210831,-55.039249,127.949089
818,319059380,-172.279541,-52.884518,127.639214
819,319076047,-173.422943,-50.662254,127.320038
820,319092714,-174.456039,-48.569801,127.089111
821,319109381,-175.571503,-46.297607,126.917480
822,319126048,-176.269455,-43.850834,126.597969
823,319142715,-176.130814,-41.960728,126.232445
824,319159382,-175.584885,-40.600456,125.983727
825,319176049,-174.482956,-39.735081,125.922501
826,319192716,-174.434280,-39.385796,125.901299
827,319209383,-175.376877,-38.597134,125.828972
828,319226050,-176.311447,-38.393970,125.556831
829,319242717,-174.352966,-39.579136,125.592438
830,319259384,-175.369965,-40.921074,125.706017
831,319276051,-176.796722,-42.739952,125.866058
832,319292718,-176.667282,-45.158890,126.222771
833,319309385,-178.264832,-47.614090,126.807205
834,319326052,179.146820,-50.707699,127.853302
835,319342719,177.327667,-54.397354,129.357742
836,319359386,174.418839,-58.111610,131.114334
837,319376053,171.767319,-62.027134,133.331879
838,319392720,170.903198,-66.050934,136.330093
839,319409387,169.629272,-69.747787,140.237000
840,319426054,166.838120,-72.562225,144.479706
841,319442721,160.916306,-75.982414,149.534119
842,319459388,157.382492,-77.624840,150.396210
843,319476055,165.532089,-74.381241,143.297714
844,319492722,167.917709,-73.421524,142.827911
845,319509389,154.426971,-76.251358,147.783829
846,319526056,153.991714,-76.243401,145.545425
847,319542723,164.332428,-75.084160,141.877335
848,319559390,165.912033,-74.726654,140.738541
849,319576057,164.668137,-75.330734,140.740402
850,319592724,165.966461,-74.994972,140.085846
851,319609391,165.101425,-74.679436,139.487183
852,319626058,165.345337,-75.302315,139.776794
853,319642725,165.756149,-75.278931,139.295456
854,319659392,165.378265,-75.156769,138.866486
855,319676059,165.610504,-75.462227,139.092194
856,319692726,166.525253,-75.543755,138.854401
857,319709393,167.490051,-75.524780,138.454437
858,319726060,168.453644,-75.466667,138.066116
859,319742727,169.043884,-75.418037,137.653122
860,319759394,169.285919,-75.459114,137.327820
861,319776061,169.595642,-75.502594,137.007095
862,319792728,170.020889,-75.575813,136.643845
863,319809395,170.802261,-75.556992,136.110916
864,319826062,171.610794,-75.560936,135.621979