sep=,
DeviceTag:,Thigh
FirmwareVersion:,1.6.0
AppVersion:,2020.4.1
SyncStatus:,Un-synced
OutputRate:,60Hz
FilterProfile:,General
Measurement Mode:,Sensor fusion Mode - Orientation(Euler)
StartTime: ,2021-03-25_17:03:59_885 CDT
© Xsens Technologies B. V. 2005-2020

PacketCounter,SampleTimeFine,Euler_X,Euler_Y,Euler_Z
1,292745257,109.290260,-85.237869,4.601276
2,292761924,114.886063,-83.776093,-1.481501
3,292778591,122.005920,-82.452675,-9.230949
4,292795258,127.905388,-81.497589,-16.044510
5,292811925,132.190872,-80.910049,-21.331192
6,292828592,136.473740,-80.394829,-26.851059
7,292845259,139.962326,-79.961800,-31.893045
8,292861926,143.276291,-79.729195,-36.250824
9,292878593,146.105957,-79.856895,-39.272167
10,292895260,148.645996,-80.009148,-41.698776
11,292911927,150.686020,-80.252892,-43.131741
12,292928594,152.543259,-80.535851,-44.190613
13,292945261,154.457382,-80.961563,-44.769753
14,292961928,156.105698,-81.225426,-45.481056
15,292978595,157.427017,-81.355774,-46.089626
16,292995262,158.387512,-81.420135,-46.441830
17,293011929,158.938934,-81.373383,-46.804298
18,293028596,159.288177,-81.247879,-47.380722
19,293045263,159.648392,-81.096138,-48.159023
20,293061930,159.935837,-80.853897,-49.099949
21,293078597,160.278961,-80.620598,-49.970795
22,293095264,160.790802,-80.338676,-50.936260
23,293111931,161.354126,-80.041817,-51.889820
24,293128598,161.763336,-79.779572,-52.612942
25,293145265,161.843369,-79.693405,-52.815262
26,293161932,161.753204,-79.665604,-52.733551
27,293178599,161.657135,-79.670540,-52.526894
28,293195266,161.605804,-79.685539,-52.218021
29,293211933,161.516159,-79.724411,-51.839745
30,293228600,161.455231,-79.764458,-51.488125
31,293245267,161.476898,-79.860497,-51.104698
32,293261934,161.534241,-80.018730,-50.864010
33,293278601,161.752472,-80.101318,-50.851589
34,293295268,161.717117,-80.159874,-50.837097
35,293311935,161.556503,-80.188988,-50.730293
36,293328602,161.504349,-80.208893,-50.750507
37,293345269,161.658234,-80.153282,-51.073429
38,293361936,161.788162,-80.111473,-51.509708
39,293378603,162.095581,-79.971695,-52.280224
40,293395270,162.339127,-79.853981,-52.825947
41,293411937,162.488785,-79.821930,-53.011345
42,293428604,162.669540,-79.797798,-53.058403
43,293445271,162.662811,-79.864532,-52.838814
44,293461938,162.536804,-80.068985,-52.355953
45,293478605,162.372025,-80.346573,-51.814747
46,293495272,162.294312,-80.631081,-51.305725
47,293511939,162.053223,-80.882294,-50.746403
48,293528606,161.810959,-81.080902,-50.348026
49,293545273,161.754425,-81.169296,-50.429218
50,293561940,161.676224,-81.229187,-50.547798
51,293578607,161.610535,-81.224075,-50.703861
52,293595274,161.580566,-81.192284,-51.000263
53,293611941,161.460785,-81.192307,-51.090839
54,293628608,160.991867,-81.368103,-50.729988
55,293645275,160.496353,-81.629257,-50.147732
56,293661942,159.791489,-82.000854,-49.361122
57,293678609,159.109482,-82.347504,-48.517609
58,293695276,158.493362,-82.567902,-47.934235
59,293711943,158.056458,-82.721237,-47.370502
60,293728610,157.997009,-82.745316,-47.249424
61,293745277,157.725555,-82.796440,-46.654976
62,293761944,157.372009,-82.769722,-46.153084
63,293778611,157.128571,-82.671906,-45.948486
64,293795278,156.906097,-82.556503,-45.725517
65,293811945,156.993881,-82.341682,-46.067547
66,293828612,156.983643,-82.203438,-46.147884
67,293845279,156.866547,-82.123390,-45.750702
68,293861946,156.419342,-82.135437,-44.745842
69,293878613,155.775208,-82.196220,-43.599548
70,293895280,155.315506,-82.192650,-42.823051
71,293911947,155.108658,-82.164238,-42.463890
72,293928614,155.175415,-82.082100,-42.422836
73,293945281,155.462982,-81.948509,-42.541843
74,293961948,155.618713,-81.851944,-42.341953
75,293978615,155.849838,-81.705498,-42.296852
76,293995282,155.649994,-81.612785,-41.783691
77,294011949,155.697678,-81.469910,-41.484867
78,294028616,155.917053,-81.333176,-41.360771
79,294045283,156.128189,-81.193687,-41.178646
80,294061950,156.165863,-81.109848,-40.780849
81,294078617,156.119751,-81.032623,-40.381985
82,294095284,156.102570,-80.938934,-40.036697
83,294111951,155.825577,-80.957695,-39.471703
84,294128618,155.858505,-80.939110,-39.256363
85,294145285,155.897461,-80.930962,-39.273769
86,294161952,156.021576,-80.933823,-39.437729
87,294178619,156.137131,-80.947510,-39.647720
88,294195286,156.004868,-80.957130,-39.784210
89,294211953,155.919418,-80.968040,-39.952950
90,294228620,155.797882,-80.948570,-40.210258
91,294245287,155.809204,-80.958672,-40.399025
92,294261954,155.786407,-81.007240,-40.503143
93,294278621,155.690491,-81.071770,-40.495716
94,294295288,155.564621,-81.176666,-40.459457
95,294311955,155.673492,-81.205826,-40.620190
96,294328622,155.689423,-81.270126,-40.681767
97,294345289,155.595047,-81.322372,-40.680550
98,294361956,155.480667,-81.360092,-40.762775
99,294378623,155.518280,-81.362190,-41.081821
100,294395290,155.506638,-81.417526,-41.317337
101,294411957,155.640503,-81.442879,-41.646381
102,294428624,155.750580,-81.406944,-42.136089
103,294445291,155.828232,-81.367012,-42.709946
104,294461958,155.985947,-81.312469,-43.383396
105,294478625,156.023560,-81.262978,-43.821026
106,294495292,155.996857,-81.170692,-44.326756
107,294511959,155.808746,-81.106445,-44.627377
108,294528626,155.636902,-81.029640,-44.918800
109,294545293,155.327881,-80.957779,-45.136269
110,294561960,155.048172,-80.857803,-45.285500
111,294578627,154.737473,-80.788429,-45.271961
112,294595294,154.212784,-80.822197,-44.772144
113,294611961,153.552231,-80.902061,-44.083221
114,294628628,152.202591,-81.176971,-42.504436
115,294645295,150.805450,-81.475647,-41.406384
116,294661962,149.487000,-82.224434,-39.982220
117,294678629,148.366394,-83.359467,-38.071831
118,294695296,145.647736,-84.631371,-33.952499
119,294711963,135.600754,-85.873932,-22.313366
120,294728630,110.157692,-86.723206,4.136764
121,294745297,84.020088,-86.690384,30.384861
122,294761964,71.414024,-86.314110,42.196571
123,294778631,57.201385,-85.781700,55.500229
124,294795298,39.596058,-84.808006,71.452110
125,294811965,24.530130,-82.797806,85.716408
126,294828632,18.110622,-80.161514,93.148453
127,294845299,16.616777,-78.421059,95.488510
128,294861966,15.542527,-77.232635,96.378525
129,294878633,13.878034,-76.089035,97.166367
130,294895300,12.801132,-74.886810,97.745956
131,294911967,13.097085,-73.797295,97.908897
132,294928634,14.259055,-72.739044,97.787964
133,294945301,16.122593,-71.625557,97.597023
134,294961968,18.215567,-70.545296,97.292778
135,294978635,20.340164,-69.448944,96.867676
136,294995302,22.498533,-68.540543,96.417641
137,295011969,23.919163,-68.004181,95.832619
138,295028636,24.390821,-67.562408,95.423523
139,295045303,23.763035,-67.239792,95.297737
140,295061970,22.526651,-67.001137,95.489662
141,295078637,21.361185,-66.770340,96.047577
142,295095304,19.591709,-66.979813,96.505920
143,295111971,17.335945,-66.734665,97.463509
144,295128638,14.917516,-66.311867,98.677368
145,295145305,12.463795,-65.848701,99.846542
146,295161972,10.666341,-65.345253,100.801880
147,295178639,8.927439,-65.050270,101.586189
148,295195306,7.113106,-63.458626,102.904083
149,295211973,5.650874,-63.424824,103.906288
150,295228640,6.174493,-64.149483,104.096527
151,295245307,6.993639,-64.099823,104.113609
152,295261974,8.021708,-64.128609,104.421753
153,295278641,8.924148,-64.748756,104.645424
154,295295308,10.638716,-66.023270,104.756897
155,295311975,8.414537,-67.022034,106.122742
156,295328642,4.814868,-68.937538,107.697075
157,295345309,1.926303,-70.958305,109.485840
158,295361976,-1.185338,-72.572067,111.357849
159,295378643,-2.741338,-74.247208,113.052216
160,295395310,-4.132220,-75.854202,114.385902
161,295411977,-4.514800,-77.459915,115.392357
162,295428644,-5.197813,-79.153130,116.361252
163,295445311,-6.402522,-80.968956,117.793610
164,295461978,-9.804859,-82.979492,120.720047
165,295478645,-17.032900,-85.093445,127.338715
166,295495312,-35.614059,-87.067421,145.582809
167,295511979,-82.381348,-88.140907,-167.539688
168,295528646,-139.819702,-87.084564,-110.338898
169,295545313,-159.543823,-84.738136,-91.167213
170,295561980,-167.747726,-81.978310,-83.767181
171,295578647,-172.048157,-79.109520,-80.177727
172,295595314,-174.484070,-76.159180,-78.249611
173,295611981,-175.969482,-73.265839,-77.051048
174,295628648,-177.048508,-70.349762,-76.125633
175,295645315,-177.598740,-67.649101,-75.418610
176,295661982,-177.301163,-65.626236,-75.066437
177,295678649,-176.392349,-64.020134,-75.027336
178,295695316,-176.444275,-62.672459,-75.006859
179,295711983,-176.626984,-61.704399,-74.992004
180,295728650,-175.756134,-60.582207,-75.163033
181,295745317,-174.612289,-59.397243,-75.561577
182,295761984,-173.900558,-58.301033,-76.048340
183,295778651,-173.817810,-57.553387,-76.527962
184,295795318,-174.078094,-56.993649,-76.986786
185,295811985,-174.576523,-56.703693,-77.552330
186,295828652,-174.662933,-56.908508,-78.335854
187,295845319,-175.462158,-57.879147,-79.249313
188,295861986,-176.642517,-59.981792,-79.933578
189,295878653,-177.883209,-63.049866,-80.037834
190,295895320,179.392380,-65.239334,-79.268112
191,295911987,175.576385,-67.912849,-78.511497
192,295928654,171.892441,-70.300644,-77.639534
193,295945321,167.461411,-73.089218,-76.005516
194,295961988,162.791275,-76.356888,-73.089035
195,295978655,156.437637,-79.800537,-67.733086
196,295995322,144.415909,-83.336411,-55.291073
197,296011989,111.387558,-85.970558,-22.248898
198,296028656,56.963242,-85.757484,31.773201
199,296045323,27.528759,-83.459206,60.825970
200,296061990,13.676077,-81.039413,74.045135
201,296078657,6.773644,-78.237137,81.318817
202,296095324,4.336738,-74.991295,84.750832
203,296111991,3.490587,-72.158463,86.581741
204,296128658,4.228706,-69.810219,87.593765
205,296145325,6.114847,-68.098763,87.884315
206,296161992,8.887287,-66.868027,87.664948
207,296178659,11.687064,-66.050903,87.398422
208,296195326,13.936433,-65.760231,87.474396
209,296211993,15.500360,-66.119843,87.940155
210,296228660,15.931413,-67.125061,88.649872
211,296245327,15.173196,-68.659782,89.607689
212,296261994,13.547675,-70.126816,91.390884
213,296278661,12.487328,-70.762627,94.578384
214,296295328,7.830111,-64.939995,98.604233
215,296311995,11.885859,-67.684296,98.411568
216,296328662,10.911813,-64.696167,98.375984
217,296345329,13.740766,-63.607697,96.799950
218,296361996,12.965898,-64.118881,96.289047
219,296378663,9.293281,-62.493061,97.527122
220,296395330,7.260565,-63.208435,98.462669
221,296411997,4.329773,-67.874496,101.311722
222,296428664,4.589921,-63.944595,104.071373
223,296445331,6.638445,-65.915123,104.583359
224,296461998,8.521455,-67.874023,103.119408
225,296478665,6.521580,-67.915985,103.159843
226,296495332,1.448467,-69.901260,103.246185
227,296511999,-1.973273,-72.645493,104.835304
228,296528666,-1.208476,-75.134941,106.323456
229,296545333,1.408607,-75.527618,106.602737
230,296562000,3.176648,-77.071091,106.887077
231,296578667,1.730246,-79.539055,107.214172
232,296595334,-1.529321,-81.921677,108.553307
233,296612001,-7.582194,-84.898270,112.592949
234,296628668,-26.662201,-87.848511,130.056473
235,296645335,-138.550583,-88.391609,-118.064278
236,296662002,-165.939072,-85.961731,-89.997971
237,296678669,-173.878540,-82.892128,-81.969734
238,296695336,-177.833282,-79.609520,-78.874146
239,296712003,179.726700,-76.530304,-77.245750
240,296728670,178.541031,-73.715096,-76.143028
241,296745337,177.993988,-71.490860,-74.999458
242,296762004,178.437317,-69.895561,-73.995049
243,296778671,179.867767,-68.383270,-73.756729
244,296795338,-178.820099,-66.964363,-73.807541
245,296812005,-178.015366,-65.770241,-74.059631
246,296828672,-177.975754,-64.794792,-74.553696
247,296845339,-177.848709,-63.778416,-75.353714
248,296862006,-176.933090,-62.577778,-76.444717
249,296878673,-176.367279,-61.188236,-77.670166
250,296895340,-177.123199,-60.125042,-78.663551
251,296912007,-178.545334,-59.534088,-79.248810
252,296928674,-179.193161,-59.759472,-79.436234
253,296945341,179.967270,-60.823601,-79.550529
254,296962008,179.478455,-63.359596,-79.365036
255,296978675,178.704590,-66.862724,-77.501167
256,296995342,175.896729,-69.222298,-74.648643
257,297012009,171.169205,-71.679527,-72.090118
258,297028676,166.210419,-73.744553,-70.608368
259,297045343,160.629547,-76.024971,-68.801247
260,297062010,153.943054,-78.865753,-64.858482
261,297078677,143.272217,-82.158531,-56.829899
262,297095344,121.952003,-85.194176,-35.219296
263,297112011,71.534409,-86.196510,16.039618
264,297128678,33.078842,-84.065125,55.007347
265,297145345,18.113564,-81.003136,70.582756
266,297162012,9.921817,-78.204170,78.869492
267,297178679,6.178740,-74.886864,83.705017
268,297195346,3.899436,-71.827553,86.604416
269,297212013,2.921642,-69.321884,88.663254
270,297228680,3.178421,-67.431969,89.981956
271,297245347,4.481197,-66.179497,90.706032
272,297262014,6.815552,-65.460861,91.063858
273,297278681,10.136415,-65.299301,91.232559
274,297295348,13.690179,-65.607040,91.543922
275,297312015,16.368767,-66.346024,92.162735
276,297328682,17.370531,-67.867012,92.901520
277,297345349,17.135958,-69.825493,93.808479
278,297362016,17.163662,-71.263382,95.281471
279,297378683,18.357798,-71.293533,96.562897
280,297395350,18.701986,-66.123039,97.018974
281,297412017,20.733982,-67.534401,95.956863
282,297428684,20.742069,-65.333031,95.933846
283,297445351,19.708845,-64.432396,95.887390
284,297462018,17.047537,-64.619698,96.565636
285,297478685,15.323866,-65.834427,97.534142
286,297495352,9.048591,-65.906235,100.781006
287,297512019,4.912025,-64.112839,104.364975
288,297528686,6.064095,-68.722481,105.879120
289,297545353,5.304218,-65.143387,107.747025
290,297562020,6.003912,-67.207993,106.659348
291,297578687,4.766542,-69.989822,105.882477
292,297595354,3.456932,-69.697708,106.232941
293,297612021,2.405918,-70.867279,107.573715
294,297628688,2.236338,-73.267281,108.626633
295,297645355,4.155546,-74.136398,109.212814
296,297662022,3.990202,-75.689110,110.019684
297,297678689,1.871850,-77.743141,111.499649
298,297695356,-2.207183,-79.947136,113.876289
299,297712023,-8.302675,-82.355202,117.977325
300,297728690,-18.943529,-85.032410,126.516235
301,297745357,-41.025951,-87.228233,147.874451
302,297762024,-95.638283,-88.177376,-157.649460
303,297778691,-151.062866,-86.678932,-102.424751
304,297795358,-166.701630,-84.634506,-87.109833
305,297812025,-174.166779,-82.163437,-80.256363
306,297828692,-177.547211,-79.610168,-76.667694
307,297845359,-179.386230,-77.011139,-74.272614
308,297862026,179.523193,-74.269737,-72.625023
309,297878693,179.384613,-71.862495,-71.592728
310,297895360,-179.885925,-70.022118,-71.086670
311,297912027,-179.226562,-68.520180,-71.112587
312,297928694,-179.121536,-67.026581,-71.641281
313,297945361,-179.108948,-65.720535,-72.483696
314,297962028,-178.202347,-64.512794,-73.413048
315,297978695,-177.387238,-63.284420,-74.427643
316,297995362,-177.772339,-62.176231,-75.146759
317,298012029,-179.122025,-61.491970,-75.268791
318,298028696,179.865631,-61.346798,-75.151222
319,298045363,-179.856613,-61.794975,-75.374100
320,298062030,-179.472076,-63.160244,-75.559090
321,298078697,179.935150,-65.836571,-74.773209
322,298095364,178.208633,-68.363060,-72.705406
323,298112031,173.797195,-70.822067,-69.782158
324,298128698,168.780243,-73.384483,-67.006477
325,298145365,163.280365,-75.427612,-64.650627
326,298162032,156.569138,-77.794342,-60.905903
327,298178699,147.307831,-80.524109,-54.121372
328,298195366,132.266022,-83.314697,-41.162170
329,298212033,103.704910,-85.331337,-11.597371
330,298228700,57.708172,-84.815788,35.435032
331,298245367,34.177216,-82.272903,59.784122
332,298262034,22.346586,-79.562988,71.172302
333,298278701,14.833747,-76.829041,78.405212
334,298295368,10.873603,-73.658966,82.936066
335,298312035,8.018040,-71.329987,85.840515
336,298328702,6.762128,-69.261215,87.883125
337,298345369,6.185116,-67.814026,89.237587
338,298362036,6.436120,-66.941856,90.130035
339,298378703,7.655895,-66.642052,90.789520
340,298395370,9.954255,-66.962990,91.444420
341,298412037,12.867511,-67.686127,92.270164
342,298428704,15.543736,-68.860176,93.110146
343,298445371,16.284859,-70.647278,94.244194
344,298462038,14.765877,-72.416603,96.411758
345,298478705,13.355703,-73.510513,99.207123
346,298495372,12.718021,-71.686317,101.004936
347,298512039,17.033358,-69.159416,98.513237
348,298528706,17.530737,-69.253082,98.125214
349,298545373,19.567034,-67.304207,97.491989
350,298562040,17.810350,-66.989960,97.329689
351,298578707,15.509637,-66.822624,98.511978
352,298595374,12.787158,-67.809601,100.093773
353,298612041,7.434341,-69.379074,103.766281
354,298628708,1.608549,-65.927315,109.074898
355,298645375,5.135890,-66.294655,110.767799
356,298662042,6.321576,-67.124969,111.231514
357,298678709,7.259803,-66.671646,109.944511
358,298695376,2.632497,-68.891846,109.143593
359,298712043,-2.039154,-70.795372,109.769936
360,298728710,0.692445,-71.126816,111.321976
361,298745377,-0.259987,-73.005409,112.209381
362,298762044,1.444459,-74.461861,112.018669
363,298778711,2.863737,-75.381020,112.086929
364,298795378,-0.347701,-77.777855,112.931992
365,298812045,-2.674519,-79.713287,114.257507
366,298828712,-7.975138,-82.146622,117.421898
367,298845379,-13.982782,-84.489822,122.185104
368,298862046,-27.063158,-86.983772,134.386398
369,298878713,-76.006996,-88.705475,-176.528320
370,298895380,-145.450607,-88.150726,-106.905952
371,298912047,-169.720810,-85.693245,-83.535324
372,298928714,-176.311951,-83.228653,-77.472115
373,298945381,-179.787048,-80.662430,-74.191948
374,298962048,178.353653,-77.896019,-72.011414
375,298978715,177.429031,-75.374451,-70.107384
376,298995382,177.271713,-73.131393,-68.700821
377,299012049,177.803406,-71.299965,-68.078873
378,299028716,178.696991,-69.791801,-68.084824
379,299045383,179.146805,-68.654770,-68.521523
380,299062050,179.392761,-67.580467,-69.121582
381,299078717,179.265686,-66.396408,-69.887184
382,299095384,179.421204,-65.163300,-70.947884
383,299112051,-179.932755,-63.642616,-72.280403
384,299128718,-179.821899,-62.452991,-73.360893
385,299145385,179.046906,-61.703255,-73.793823
386,299162052,177.797562,-61.755989,-73.677757
387,299178719,177.351868,-62.298199,-73.595573
388,299195386,177.859802,-64.111801,-73.416283
389,299212053,178.423187,-66.617928,-71.691223
390,299228720,175.414673,-67.877708,-69.071159
391,299245387,170.375488,-69.543144,-66.250534
392,299262054,165.387207,-71.226547,-63.518192
393,299278721,159.802139,-73.341446,-60.794052
394,299295388,154.455872,-75.470352,-57.414742
395,299312055,145.989700,-78.280136,-50.449402
396,299328722,132.537155,-81.053787,-38.794788
397,299345389,114.404579,-83.347107,-19.689440
398,299362056,81.910286,-84.494980,14.047260
399,299378723,50.518116,-83.536255,46.611889
400,299395390,31.648153,-81.530128,66.458733
401,299412057,19.888712,-79.363976,78.845566
402,299428724,12.994011,-77.203346,87.116013
403,299445391,10.034676,-74.545563,92.664093
404,299462058,10.651045,-72.002541,95.809555
405,299478725,13.783227,-69.663765,97.692757
406,299495392,18.491323,-67.471191,99.057281
407,299512059,23.126144,-65.844292,100.340591
408,299528726,26.073368,-64.705101,102.036736
409,299545393,26.494148,-64.016434,104.508331
410,299562060,24.943373,-63.924561,107.938019
411,299578727,23.984324,-64.787971,111.667664
412,299595394,25.171608,-66.298546,114.914207
413,299612061,28.625393,-67.972580,116.716545
414,299628728,32.386024,-69.125160,117.501205
415,299645395,36.422737,-69.621994,117.401855
416,299662062,44.432220,-70.108139,114.203896
417,299678729,52.817230,-69.356728,113.052475
418,299695396,62.041660,-68.617226,112.645760
419,299712063,73.742043,-68.290047,109.395576
420,299728730,81.534668,-67.343414,109.106926
421,299745397,85.650452,-66.450539,111.788445
422,299762064,89.777405,-66.214867,114.033478
423,299778731,95.786110,-66.733978,113.652092
424,299795398,99.028915,-67.667305,114.299400
425,299812065,100.018036,-68.803284,114.288643
426,299828732,100.804337,-69.819489,111.851524
427,299845399,102.733292,-70.884491,105.540298
428,299862066,105.415596,-72.338989,96.912910
429,299878733,103.692665,-74.436981,94.980392
430,299895400,104.756065,-76.147453,91.439476
431,299912067,111.758888,-76.874496,83.722260
432,299928734,116.883186,-77.258751,80.531158
433,299945401,120.099808,-77.323067,80.628380
434,299962068,120.692780,-77.298317,83.582405
435,299978735,124.336342,-76.652298,82.982521
436,299995402,126.785088,-76.245926,83.461411
437,300012069,131.248886,-75.743317,82.558205
438,300028736,135.612915,-75.439209,83.054199
439,300045403,137.371277,-75.825089,86.664284
440,300062070,139.521439,-75.987793,88.521393
441,300078737,141.932831,-76.020828,88.962685
442,300095404,143.815308,-76.162895,88.671707
443,300112071,145.883209,-76.263199,87.392990
444,300128738,148.518723,-76.130203,85.365524
445,300145405,150.280640,-75.984894,83.541603
446,300162072,150.841278,-76.061012,82.509972
447,300178739,151.797333,-76.091133,81.088997
448,300195406,153.205429,-76.144714,79.316559
449,300212073,154.063309,-76.542549,78.639084
450,300228740,154.923309,-77.020271,79.286789
451,300245407,155.049011,-77.575745,81.609192
452,300262074,154.069534,-78.246590,85.551521
453,300278741,152.167725,-78.843079,90.597939
454,300295408,147.958832,-79.544998,97.648041
455,300312075,143.213654,-80.038101,105.136391
456,300328742,138.040878,-80.518967,112.883827
457,300345409,133.954529,-80.888771,119.217239
458,300362076,130.508331,-81.288261,124.112274
459,300378743,127.944580,-81.732925,127.521385
460,300395410,124.756973,-82.332771,131.163010
461,300412077,120.693115,-83.002243,136.278687
462,300428744,113.059326,-83.600677,145.504242
463,300445411,101.867477,-83.803940,158.621704
464,300462078,90.456436,-83.586288,171.867599
465,300478745,78.839294,-83.043541,-175.432098
466,300495412,72.584503,-82.422829,-168.782471
467,300512079,66.364250,-82.018494,-162.609573
468,300528746,63.332001,-82.029076,-158.836639
469,300545413,63.540943,-82.425110,-157.396515
470,300562080,60.529350,-82.727051,-150.974091
471,300578747,57.603775,-83.287178,-144.187775
472,300595414,52.216850,-83.795975,-135.893066
473,300612081,43.973202,-83.586685,-124.462700
474,300628748,38.061810,-82.527092,-114.621216
475,300645415,34.150936,-80.546204,-106.400200
476,300662082,32.476383,-78.929146,-100.885628
477,300678749,31.822733,-77.708603,-96.725250
478,300695416,31.271795,-76.632782,-93.488510
479,300712083,30.961624,-75.849754,-91.388016
480,300728750,30.696810,-75.235756,-90.109863
481,300745417,30.565500,-74.701408,-89.496529
482,300762084,29.937908,-74.044914,-88.847282
483,300778751,29.053753,-73.313377,-88.147232
484,300795418,27.943123,-72.607239,-87.454582
485,300812085,26.976143,-72.086258,-86.827919
486,300828752,26.139475,-72.008537,-86.553505
487,300845419,25.466806,-71.905869,-86.318977
488,300862086,24.331934,-71.538254,-85.580856
489,300878753,23.628990,-71.688927,-85.516609
490,300895420,22.278179,-71.774467,-85.206726
491,300912087,20.870432,-71.882828,-84.754929
492,300928754,19.650846,-72.126366,-84.323235
493,300945421,18.519730,-72.296982,-83.591728
494,300962088,17.555885,-72.577194,-82.857941
495,300978755,16.480129,-72.794098,-82.058067
496,300995422,15.613276,-73.122902,-81.501656
497,301012089,15.274550,-73.097366,-80.805893
498,301028756,14.719348,-72.211777,-79.435722
499,301045423,14.748066,-72.597252,-78.904892
500,301062090,14.553342,-72.318512,-77.905685
501,301078757,14.992199,-71.631050,-76.612648
502,301095424,15.964782,-72.127602,-75.866386
503,301112091,15.463844,-73.093803,-74.891319
504,301128758,13.253213,-74.349106,-73.188004
505,301145425,9.364502,-75.866867,-71.065857
506,301162092,3.477659,-77.596001,-67.412804
507,301178759,-3.485455,-78.893990,-61.841450
508,301195426,-8.889278,-80.390717,-57.237183
509,301212093,-12.379463,-81.474701,-53.916409
510,301228760,-15.169209,-82.667519,-51.207874
511,301245427,-17.821543,-83.856918,-48.562565
512,301262094,-23.734236,-85.310989,-42.701828
513,301278761,-38.389912,-86.664993,-28.498762
514,301295428,-71.812469,-87.550079,4.361901
515,301312095,-117.979362,-87.049454,49.782959
516,301328762,-139.358032,-85.720352,70.741844
517,301345429,-150.451981,-84.251511,81.431328
518,301362096,-158.957581,-82.306602,89.252136
519,301378763,-164.433258,-80.326065,93.998535
520,301395430,-168.456589,-78.213608,97.399895
521,301412097,-171.596298,-76.053307,100.142906
522,301428764,-174.024689,-73.811111,102.380424
523,301445431,-175.432526,-71.541702,103.971809
524,301462098,-175.909195,-69.374268,104.984764
525,301478765,-176.102356,-67.323936,105.512726
526,301495432,-176.088394,-65.421516,105.695320
527,301512099,-176.012222,-63.709545,105.819366
528,301528766,-176.064651,-62.222866,106.017502
529,301545433,-175.993561,-61.087860,106.139389
530,301562100,-175.809174,-60.133545,106.013046
531,301578767,-175.602859,-58.988888,105.729919
532,301595434,-175.024933,-57.745781,105.349693
533,301612101,-174.933670,-56.595684,105.080093
534,301628768,-175.716324,-55.765221,105.063881
535,301645435,-176.199371,-55.475777,105.181435
536,301662102,-176.548660,-55.481899,105.161156
537,301678769,-176.554810,-56.108948,104.832596
538,301695436,-176.900787,-57.502556,104.572655
539,301712103,-177.972580,-60.057472,104.939667
540,301728770,-179.982925,-62.268173,106.192528
541,301745437,176.525620,-64.755867,107.520828
542,301762104,172.852234,-67.036942,108.617462
543,301778771,168.522934,-69.146927,109.537849
544,301795438,163.947266,-71.550102,110.867966
545,301812105,159.048996,-74.221069,112.640175
546,301828772,153.372055,-77.430359,115.557297
547,301845439,148.205414,-80.669235,121.187546
548,301862106,133.624176,-83.903076,136.283447
549,301878773,97.299400,-85.905090,172.821304
550,301895440,49.844780,-85.242149,-139.454575
551,301912107,26.664038,-83.241089,-116.287483
552,301928774,16.960674,-80.261810,-105.155182
553,301945441,13.295599,-77.345070,-99.974861
554,301962108,12.576984,-74.868507,-97.267647
555,301978775,13.639478,-72.760490,-95.939606
556,301995442,15.883041,-71.169281,-95.570297
557,302012109,18.201735,-69.942009,-95.336792
558,302028776,19.299419,-69.163223,-94.544052
559,302045443,19.267797,-69.077324,-93.108261
560,302062110,18.432350,-69.892456,-91.367035
561,302078777,16.761723,-71.609749,-89.620720
562,302095444,14.189695,-73.732101,-87.724464
563,302112111,11.136711,-75.884041,-85.360626
564,302128778,9.058303,-77.200943,-82.460739
565,302145445,7.705670,-72.374962,-79.902344
566,302162112,11.607513,-74.070190,-81.961792
567,302178779,14.837352,-71.562454,-83.222275
568,302195446,16.002245,-70.344818,-83.972374
569,302212113,16.004263,-70.541740,-83.859932
570,302228780,15.446816,-70.996330,-83.200027
571,302245447,10.907998,-70.236916,-80.378654
572,302262114,5.283571,-67.060120,-76.041122
573,302278781,5.473579,-72.167473,-73.324646
574,302295448,2.287252,-70.737289,-70.406837
575,302312115,3.719217,-70.902550,-69.761101
576,302328782,2.268969,-74.111954,-69.763100
577,302345449,-0.553762,-74.848083,-68.883499
578,302362116,-3.098329,-73.875038,-67.516281
579,302378783,-7.761398,-77.682785,-64.513474
580,302395450,-5.829058,-78.865341,-62.709656
581,302412117,-5.624568,-78.935852,-61.381386
582,302428784,-8.675676,-81.436127,-57.625267
583,302445451,-16.263868,-83.170479,-51.669628
584,302462118,-34.717892,-85.349327,-35.589085
585,302478785,-77.066505,-86.648186,4.337473
586,302495452,-117.294579,-85.941505,44.564793
587,302512119,-136.965286,-84.580299,64.435905
588,302528786,-153.625076,-82.163239,80.311806
589,302545453,-162.047424,-79.545525,88.687637
590,302562120,-167.290878,-77.136246,93.693581
591,302578787,-170.731644,-74.447304,97.588058
592,302595454,-172.826126,-72.016792,100.614197
593,302612121,-173.963165,-69.961395,102.727219
594,302628788,-173.759216,-68.393646,103.930328
595,302645455,-172.761459,-67.158768,104.323593
596,302662122,-171.971741,-65.792419,104.322792
597,302678789,-171.950928,-64.583961,104.092552
598,302695456,-172.513031,-63.493092,103.496765
599,302712123,-172.316483,-62.214943,102.636902
600,302728790,-171.632416,-60.839645,101.655952
601,302745457,-172.385559,-59.479118,100.868126
602,302762124,-174.006058,-58.477581,100.259048
603,302778791,-174.670517,-58.206707,99.926704
604,302795458,-175.025925,-58.547768,99.737900
605,302812125,-174.956985,-59.043682,99.779984
606,302828792,-173.792130,-60.080139,99.676643
607,302845459,-174.539902,-60.900589,99.861382
608,302862126,-176.086151,-62.672787,100.135818
609,302878793,-178.499390,-64.765511,100.581329
610,302895460,178.322815,-67.147316,101.037254
611,302912127,174.618576,-69.290443,101.610489
612,302928794,170.349777,-71.637260,102.692650
613,302945461,165.872040,-74.287628,104.684700
614,302962128,160.840469,-77.321381,107.881950
615,302978795,154.283157,-80.590591,114.184715
616,302995462,139.583344,-83.745926,129.019867
617,303012129,106.741867,-85.795418,161.544403
618,303028796,61.041286,-85.788948,-153.216599
619,303045463,30.331501,-84.106880,-123.473167
620,303062130,15.956869,-81.082138,-108.399155
621,303078797,9.595695,-78.492722,-101.690010
622,303095464,7.137999,-76.131653,-98.145638
623,303112131,7.544556,-74.244102,-96.727592
624,303128798,9.864098,-72.641891,-96.624092
625,303145465,13.231522,-71.369827,-97.122070
626,303162132,15.924670,-70.393532,-97.220612
627,303178799,17.457653,-69.960022,-96.479919
628,303195466,17.872177,-70.498161,-95.287315
629,303212133,16.842752,-71.857285,-93.987488
630,303228800,14.500222,-73.662117,-92.338432
631,303245467,11.493756,-75.371399,-89.937775
632,303262134,9.841841,-76.683327,-87.199257
633,303278801,9.887356,-74.329315,-85.062042
634,303295468,11.597552,-72.992653,-85.279427
635,303312135,15.642795,-72.323853,-87.088730
636,303328802,16.617987,-70.637024,-87.684807
637,303345469,17.102804,-71.124435,-88.220779
638,303362136,15.827461,-72.026161,-87.723473
639,303378803,10.785849,-69.096497,-84.495392
640,303395470,8.921992,-70.289047,-82.234848
641,303412137,6.794607,-74.377937,-79.633057
642,303428804,1.445691,-71.067711,-75.836380
643,303445471,2.272350,-73.447441,-75.542191
644,303462138,0.650147,-75.909897,-75.059349
645,303478805,-2.659734,-76.215912,-73.911507
646,303495472,-7.799237,-76.900497,-72.179588
647,303512139,-7.926888,-79.672134,-69.724297
648,303528806,-4.055430,-79.993805,-69.662094
649,303545473,-4.193429,-81.056007,-68.720772
650,303562140,-5.266866,-82.971886,-66.526512
651,303578807,-13.318221,-84.941505,-60.305187
652,303595474,-36.454155,-87.141930,-39.150024
653,303612141,-101.851555,-87.816811,24.353914
654,303628808,-139.730560,-86.334358,62.199883
655,303645475,-155.075623,-84.366753,77.284042
656,303662142,-164.682159,-81.862648,86.477402
657,303678809,-170.045731,-79.506233,91.678902
658,303695476,-174.143921,-76.946747,95.351059
659,303712143,-176.475357,-74.357056,98.071815
660,303728810,-177.833740,-71.898842,100.265251
661,303745477,-178.574112,-69.753250,101.770393
662,303762144,-178.061081,-67.753891,102.721619
663,303778811,-177.087540,-65.989586,103.300041
664,303795478,-176.188278,-64.735329,103.582909
665,303812145,-175.696716,-63.686562,103.481537
666,303828812,-175.649948,-62.669479,103.031578
667,303845479,-175.131454,-61.522942,102.320198
668,303862146,-174.911545,-60.286728,101.540825
669,303878813,-175.922424,-59.250675,100.861755
670,303895480,-177.194733,-58.576633,100.351898
671,303912147,-178.216156,-58.651073,100.049767
672,303928814,-178.976257,-59.420380,99.972275
673,303945481,-178.669083,-60.865509,100.464050
674,303962148,-178.845276,-62.478588,101.084518
675,303978815,179.338486,-64.402687,102.292244
676,303995482,176.691971,-66.837120,103.611130
677,304012149,173.392776,-69.185455,104.455666
678,304028816,169.705597,-71.294868,105.157608
679,304045483,165.228394,-73.496925,106.443626
680,304062150,160.314606,-75.953682,108.703552
681,304078817,154.672607,-78.690422,112.054451
682,304095484,147.544785,-81.657463,119.020241
683,304112151,129.191620,-84.628342,138.111786
684,304128818,86.625237,-86.002235,-178.642868
685,304145485,44.396599,-84.565056,-135.691193
686,304162152,25.337296,-82.235046,-116.715599
687,304178819,15.957480,-79.367714,-106.748512
688,304195486,11.143355,-76.654030,-101.402771
689,304212153,8.929033,-74.376694,-98.162773
690,304228820,8.670585,-72.456314,-96.160599
691,304245487,9.824240,-71.104118,-95.010529
692,304262154,12.470243,-70.298172,-94.526176
693,304278821,15.816345,-69.972221,-94.450790
694,304295488,18.240427,-70.217354,-93.928978
695,304312155,17.801409,-70.801865,-92.000328
696,304328822,14.265799,-71.772308,-88.923691
697,304345489,9.672527,-73.156166,-85.566216
698,304362156,6.917116,-74.765419,-82.709831
699,304378823,6.301224,-76.219406,-81.086258
700,304395490,6.784112,-75.366737,-81.437553
701,304412157,10.403496,-74.047485,-83.187019
702,304428824,12.870783,-74.261337,-84.648361
703,304445491,14.776238,-73.030357,-85.213287
704,304462158,14.111609,-72.899170,-85.047562
705,304478825,12.268420,-73.129539,-83.605980
706,304495492,10.212794,-73.708656,-81.497391
707,304512159,7.100130,-74.375557,-78.250778
708,304528826,3.550915,-70.165863,-75.258644
709,304545493,7.787530,-71.735260,-74.703728
710,304562160,7.610027,-73.324898,-73.738129
711,304578827,2.849174,-72.306236,-72.355782
712,304595494,-3.148342,-74.728676,-71.290710
713,304612161,-4.615702,-75.965088,-68.656380
714,304628828,-7.857318,-76.418518,-65.320572
715,304645495,-11.299355,-78.929825,-62.218422
716,304662162,-6.794890,-78.919518,-63.135086
717,304678829,-8.986078,-80.631828,-61.681545
718,304695496,-12.624925,-82.272720,-58.293159
719,304712163,-22.376793,-84.021973,-50.095299
720,304728830,-40.907345,-85.768486,-32.759903
721,304745497,-72.384262,-86.790268,-1.943859
722,304762164,-116.692741,-86.447418,41.362175
723,304778831,-140.342865,-85.153786,65.000175
724,304795498,-155.048447,-83.214104,79.186630
725,304812165,-164.278214,-80.842255,87.337990
726,304828832,-169.619156,-78.523575,92.686317
727,304845499,-173.119080,-76.377419,96.510765
728,304862166,-175.128113,-74.178993,99.075020
729,304878833,-175.745026,-72.003036,100.685524
730,304895500,-175.728012,-70.072990,101.536491
731,304912167,-175.262436,-68.400032,101.860817
732,304928834,-174.597092,-67.134109,101.826340
733,304945501,-174.141953,-66.181366,101.587318
734,304962168,-174.231812,-65.148933,101.210030
735,304978835,-174.310822,-63.955555,100.735580
736,304995502,-174.155411,-62.680840,100.218216
737,305012169,-174.459290,-61.576252,99.713745
738,305028836,-175.031998,-60.818989,99.351601
739,305045503,-175.835617,-60.527927,99.310905
740,305062170,-176.587448,-60.840855,99.279968
741,305078837,-176.217606,-61.867172,99.048096
742,305095504,-175.609604,-63.811939,99.068535
743,305112171,-175.656204,-66.196465,100.197121
744,305128838,-177.488953,-68.629410,101.769753
745,305145505,179.304733,-71.159676,103.046959
746,305162172,175.886108,-73.454254,103.783005
747,305178839,171.842102,-75.707649,104.380814
748,305195506,166.846802,-78.317993,105.886810
749,305212173,161.115906,-80.894852,108.212662
750,305228840,153.970810,-83.649986,113.123184
751,305245507,136.885086,-86.504921,129.933746
752,305262174,72.823441,-87.881416,-166.441711
753,305278841,24.794930,-85.961342,-119.056511
754,305295508,11.365676,-83.145393,-106.224586
755,305312175,6.520381,-80.299843,-101.553307
756,305328842,4.288032,-77.825211,-99.443810
757,305345509,3.174378,-75.747559,-98.268349
758,305362176,3.212989,-73.918961,-97.717773
759,305378843,4.267762,-72.397568,-97.680496
760,305395510,6.133929,-71.297134,-97.851295
761,305412177,8.278084,-70.809616,-97.719666
762,305428844,10.324081,-71.052055,-97.105232
763,305445511,11.979899,-71.935951,-96.136932
764,305462178,12.815682,-73.325981,-94.955360
765,305478845,12.083188,-75.208138,-93.386314
766,305495512,10.196297,-77.128273,-91.207588
767,305512179,11.975446,-78.013756,-90.544579
768,305528846,12.620598,-72.926971,-89.913292
769,305545513,19.995441,-75.461426,-94.461372
770,305562180,21.370777,-73.099930,-94.699722
771,305578847,21.850763,-72.364037,-95.958900
772,305595514,20.716524,-72.884285,-97.022636
773,305612181,18.908352,-73.489670,-96.923164
774,305628848,15.730240,-74.766174,-95.594101
775,305645515,8.775106,-72.881004,-91.158226
776,305662182,6.080249,-72.216072,-87.413940
777,305678849,-4.064728,-71.790230,-82.330025
778,305695516,1.252020,-72.260567,-82.213768
779,305712183,2.760774,-73.190529,-83.616837
780,305728850,-5.057999,-75.388092,-82.924881
781,305745517,-10.234571,-76.428970,-80.764008
782,305762184,-6.081172,-77.178482,-79.254700
783,305778851,-3.793048,-78.057739,-78.145721
784,305795518,-1.505611,-78.307343,-78.530640
785,305812185,2.716090,-79.273140,-79.736481
786,305828852,1.923988,-80.261124,-79.980164
787,305845519,0.549421,-81.631821,-79.317871
788,305862186,-3.081122,-83.119698,-77.084503
789,305878853,-7.872969,-84.729202,-73.015984
790,305895520,-16.383335,-86.257812,-64.902046
791,305912187,-35.905807,-87.492905,-45.909863
792,305928854,-73.488602,-88.105148,-8.739971
793,305945521,-110.090744,-87.827690,26.965355
794,305962188,-134.310638,-86.997559,50.053856
795,305978855,-147.229614,-86.133507,61.982567
796,305995522,-154.337570,-85.457352,68.555962
797,306012189,-158.474121,-84.958580,72.940865
798,306028856,-160.587296,-84.791954,75.772179
799,306045523,-161.795013,-84.525604,78.048492
800,306062190,-163.532028,-83.877945,80.713066
801,306078857,-165.560074,-82.950264,83.013573
802,306095524,-167.472046,-81.827499,84.772270
803,306112191,-169.270447,-80.541458,85.913101
804,306128858,-171.059067,-79.099724,86.945625
805,306145525,-172.514511,-77.619865,87.781906
806,306162192,-173.611160,-76.198860,88.213097
807,306178859,-174.140686,-74.908913,88.018959
808,306195526,-174.102325,-73.840561,87.468414
809,306212193,-173.864182,-73.012672,87.045807
810,306228860,-173.736618,-72.839272,86.719513
811,306245527,-173.165695,-73.135704,86.361710
812,306262194,-172.400269,-73.500870,86.155968
813,306278861,-171.300293,-74.080124,85.690178
814,306295528,-170.577164,-74.600426,85.257492
815,306312195,-171.144699,-74.886703,85.156982
816,306328862,-172.971191,-75.100502,85.707657
817,306345529,-175.639557,-75.671555,86.876656
818,306362196,-178.801117,-76.578346,88.821861
819,306378863,177.387054,-77.964684,91.337692
820,306395530,172.868805,-79.558952,94.686790
821,306412197,166.961929,-81.321083,99.336716
822,306428864,158.617203,-83.130730,106.575623
823,306445531,145.505630,-84.872948,118.237457
824,306462198,124.833321,-86.157997,138.051270
825,306478865,94.203476,-86.653557,168.372971
826,306495532,63.508888,-86.157280,-161.156204
827,306512199,43.752853,-84.895393,-141.119308
828,306528866,32.353924,-83.530098,-129.928085
829,306545533,25.353226,-82.346245,-123.151772
830,306562200,22.708992,-81.363663,-119.917389
831,306578867,21.830616,-80.499397,-118.699539
832,306595534,21.509607,-79.898651,-118.330818
833,306612201,21.788710,-79.768028,-118.592155
834,306628868,22.899958,-80.079544,-119.428253
835,306645535,24.929966,-80.608658,-120.720291
836,306662202,28.297092,-81.718193,-123.308113
837,306678869,32.912071,-83.361656,-127.249992
838,306695536,39.151016,-85.014145,-132.564011
839,306712203,46.732353,-86.068069,-139.461899
840,306728870,49.537998,-86.291656,-143.043961
841,306745537,38.956284,-85.803482,-134.103653
842,306762204,20.106880,-83.005630,-115.625885
843,306778871,18.109289,-83.008797,-113.399620
844,306795538,41.216721,-86.233185,-136.161011
845,306812205,53.018974,-86.526108,-149.595749
846,306828872,55.455654,-86.867371,-156.903854
847,306845539,40.242340,-87.095253,-143.498505
848,306862206,44.592358,-87.615417,-145.380264
849,306878873,62.017040,-88.123825,-161.605225
850,306895540,76.781929,-88.427536,-176.894287
851,306912207,83.914955,-88.618881,175.851059
852,306928874,109.703796,-88.653465,149.439774
853,306945541,129.778397,-88.372742,129.366684
854,306962208,136.147079,-88.118622,123.302521
855,306978875,144.015503,-87.718437,116.192459
856,306995542,149.973129,-87.399780,111.043976
857,307012209,155.414124,-87.153938,106.217720
858,307028876,161.367355,-86.726616,100.129517
859,307045543,166.410355,-86.084137,94.597763
860,307062210,169.575882,-85.595581,90.887352
861,307078877,171.690292,-85.210297,88.442894
862,307095544,173.310867,-84.798622,86.701965
863,307112211,174.461594,-84.446991,85.483002
864,307128878,175.307526,-84.107780,84.611832